"Time (MJD)" "Temp./1e3 (K)" "Temp. Err." "Radius/1e15 (cm)" "Radius Err." "Log10(Bol. Lum)" "Log10(Bol. Err)"
-4.128 19.956 1.880 0.528 0.045 43.498 42.812
-3.120 19.103 1.679 0.581 0.048 43.505 42.780
-2.113 25.094 2.115 0.418 0.029 43.693 42.995
-1.105 26.722 2.337 0.430 0.030 43.828 43.153
-0.097 22.137 1.157 0.547 0.024 43.709 42.789
0.911 16.771 0.577 0.727 0.025 43.474 42.321
1.918 14.365 0.384 0.871 0.025 43.362 42.057
2.926 14.268 0.371 0.879 0.025 43.358 42.039
3.934 14.583 0.385 0.856 0.024 43.373 42.067
4.941 14.932 0.402 0.832 0.024 43.390 42.099
5.949 15.281 0.419 0.810 0.023 43.406 42.130
6.957 15.062 0.400 0.817 0.023 43.389 42.095
7.965 14.822 0.381 0.826 0.023 43.371 42.059
8.972 14.570 0.363 0.836 0.022 43.351 42.020
9.980 14.372 0.349 0.842 0.022 43.333 41.987
10.988 13.940 0.323 0.862 0.022 43.300 41.924
11.995 11.923 0.224 1.004 0.023 43.162 41.633
13.003 10.456 0.164 1.155 0.025 43.055 41.380
14.011 9.761 0.129 1.225 0.023 42.987 41.205
15.018 9.739 0.128 1.209 0.023 42.972 41.186
16.026 9.628 0.123 1.208 0.022 42.951 41.148
17.034 9.474 0.116 1.221 0.022 42.932 41.103
18.042 9.265 0.110 1.247 0.022 42.912 41.055
19.049 9.083 0.105 1.270 0.022 42.893 41.012
20.057 8.908 0.100 1.293 0.022 42.875 40.970
21.065 8.742 0.096 1.316 0.022 42.858 40.930
22.072 8.586 0.092 1.338 0.022 42.841 40.892
23.080 8.436 0.088 1.361 0.023 42.825 40.855
24.088 8.299 0.085 1.382 0.023 42.810 40.822
25.096 8.301 0.085 1.365 0.022 42.800 40.816
26.103 8.297 0.086 1.350 0.022 42.789 40.810
27.111 8.268 0.085 1.341 0.022 42.777 40.798
28.119 8.266 0.086 1.326 0.022 42.767 40.793
29.126 8.244 0.085 1.317 0.022 42.756 40.784
30.134 8.091 0.083 1.347 0.022 42.743 40.753
31.142 7.944 0.080 1.377 0.022 42.731 40.723
32.150 7.803 0.078 1.408 0.023 42.719 40.694
33.157 7.664 0.075 1.440 0.024 42.707 40.665
34.165 7.547 0.074 1.469 0.024 42.698 40.642
35.173 7.530 0.074 1.466 0.024 42.692 40.641
36.180 7.507 0.074 1.466 0.024 42.687 40.638
37.188 7.459 0.074 1.472 0.025 42.679 40.629
38.196 7.389 0.073 1.485 0.025 42.671 40.615
39.203 7.371 0.074 1.478 0.025 42.662 40.610
40.211 7.540 0.078 1.397 0.024 42.653 40.638
41.219 7.681 0.082 1.331 0.023 42.643 40.660
42.227 7.532 0.079 1.363 0.024 42.629 40.627
43.234 7.398 0.077 1.393 0.024 42.617 40.598
44.242 7.298 0.076 1.413 0.025 42.606 40.575
45.250 7.181 0.074 1.440 0.025 42.594 40.550
46.257 7.062 0.072 1.470 0.026 42.583 40.524
47.265 6.914 0.070 1.511 0.027 42.570 40.494
48.273 6.827 0.069 1.529 0.028 42.559 40.474
49.281 6.697 0.068 1.568 0.029 42.547 40.448
50.288 6.616 0.067 1.587 0.029 42.536 40.431
51.296 6.524 0.066 1.612 0.030 42.526 40.414
52.304 6.439 0.065 1.637 0.031 42.516 40.399
53.311 6.358 0.065 1.661 0.032 42.507 40.386
54.319 6.279 0.064 1.685 0.033 42.498 40.375
55.327 6.204 0.063 1.709 0.034 42.489 40.365
56.335 6.135 0.063 1.731 0.035 42.481 40.357
57.342 6.147 0.065 1.714 0.035 42.476 40.360
58.350 6.176 0.067 1.688 0.035 42.471 40.364
59.358 6.209 0.069 1.661 0.035 42.466 40.369
60.365 6.242 0.071 1.634 0.035 42.461 40.375
61.373 6.245 0.072 1.622 0.036 42.455 40.377
62.381 6.261 0.074 1.607 0.036 42.451 40.382
63.389 6.311 0.076 1.567 0.036 42.443 40.387
64.396 6.462 0.081 1.451 0.034 42.418 40.392
65.404 6.643 0.087 1.330 0.031 42.390 40.403
66.412 6.862 0.095 1.208 0.029 42.363 40.425
67.419 7.146 0.106 1.082 0.027 42.337 40.462
68.427 7.202 0.110 1.037 0.027 42.314 40.459
69.435 6.543 0.092 1.240 0.032 42.303 40.336
70.442 6.033 0.078 1.466 0.037 42.307 40.280
71.450 5.705 0.070 1.669 0.042 42.323 40.290
72.458 5.450 0.065 1.854 0.047 42.335 40.322
73.466 5.417 0.065 1.867 0.048 42.330 40.329
74.473 5.385 0.065 1.876 0.049 42.324 40.333
75.481 2.500 0.000 7.644 0.037 42.211 40.198
76.489 2.500 0.000 7.519 0.037 42.197 40.191
77.496 2.500 0.000 7.388 0.037 42.182 40.182
78.504 2.500 0.000 7.246 0.037 42.165 40.174
79.512 2.500 0.000 7.216 0.037 42.161 40.178
80.520 2.500 0.000 7.079 0.037 42.144 40.167
81.527 2.500 0.000 7.047 0.039 42.141 40.190
82.535 2.500 0.000 6.953 0.040 42.129 40.185
83.543 2.500 0.000 6.854 0.040 42.117 40.180
84.550 2.500 0.000 6.738 0.040 42.102 40.172
85.558 2.500 0.000 6.632 0.040 42.088 40.165
86.566 2.500 0.000 6.453 0.039 42.064 40.148
87.574 2.500 0.000 6.354 0.039 42.051 40.142
88.581 2.500 0.000 6.268 0.039 42.039 40.137
89.589 2.500 0.000 5.982 0.040 41.998 40.127
90.597 2.500 0.000 5.879 0.040 41.983 40.119
91.604 2.500 0.000 5.778 0.040 41.968 40.111
92.612 2.500 0.000 5.323 0.076 41.897 40.350
93.620 2.500 0.000 5.226 0.075 41.881 40.341
94.628 2.500 0.000 5.135 0.075 41.866 40.334
95.635 2.500 0.000 5.068 0.076 41.854 40.330
96.643 2.500 0.000 5.001 0.076 41.843 40.326
97.651 2.500 0.000 4.936 0.076 41.831 40.322
98.658 2.500 0.000 4.871 0.077 41.820 40.318
99.666 2.500 0.000 4.807 0.077 41.808 40.314
100.674 2.500 0.000 4.744 0.077 41.797 40.310
101.681 2.500 0.000 4.682 0.078 41.785 40.306
102.689 2.500 0.000 4.620 0.078 41.774 40.302
103.697 2.500 0.000 4.560 0.078 41.762 40.298
104.705 2.500 0.000 4.500 0.078 41.751 40.294
105.712 2.500 0.000 4.441 0.079 41.740 40.289
106.720 2.500 0.000 4.383 0.079 41.728 40.285
107.728 2.500 0.000 4.325 0.079 41.717 40.281
108.735 2.500 0.000 4.268 0.080 41.705 40.277
109.743 2.500 0.000 4.212 0.080 41.694 40.273
110.751 2.500 0.000 4.157 0.080 41.682 40.268
111.759 2.500 0.000 4.103 0.080 41.671 40.264
112.766 2.500 0.000 4.049 0.081 41.659 40.260
113.774 2.500 0.000 3.996 0.081 41.648 40.255
114.782 2.500 0.000 3.943 0.081 41.636 40.251
115.789 2.500 0.000 3.891 0.081 41.625 40.246
116.797 2.500 0.000 3.840 0.082 41.613 40.242
117.805 2.500 0.000 3.790 0.082 41.602 40.237
118.813 2.500 0.000 3.740 0.082 41.590 40.232
119.820 2.500 0.000 3.691 0.082 41.579 40.228
120.828 2.500 0.000 3.643 0.082 41.567 40.223
121.836 2.500 0.000 3.595 0.083 41.556 40.218
122.843 2.500 0.000 3.548 0.083 41.544 40.213
123.851 2.500 0.000 3.501 0.083 41.533 40.208
124.859 2.500 0.000 3.455 0.083 41.522 40.203
125.866 2.500 0.000 3.410 0.083 41.510 40.198
126.874 2.500 0.000 3.365 0.083 41.499 40.193
127.882 2.500 0.000 3.321 0.083 41.487 40.188
128.890 2.500 0.000 3.277 0.084 41.476 40.183
129.897 2.500 0.000 3.234 0.084 41.464 40.178
130.905 2.500 0.000 3.192 0.084 41.453 40.173
131.913 2.500 0.000 3.150 0.084 41.441 40.167
132.920 2.500 0.000 3.109 0.084 41.430 40.162
133.928 2.500 0.000 3.068 0.084 41.418 40.157
134.936 2.500 0.000 3.028 0.084 41.407 40.151
135.944 2.500 0.000 2.988 0.084 41.395 40.146
136.951 2.500 0.000 2.949 0.084 41.384 40.140
137.959 2.500 0.000 2.910 0.084 41.372 40.134
