"Time (MJD)" "Temp./1e3 (K)" "Temp. Err." "Radius/1e15 (cm)" "Radius Err." "Log10(Bol. Lum)" "Log10(Bol. Err)"
-5.992 8.355 inf 1.000 inf 42.541 inf
-4.992 8.138 inf 1.034 inf 42.524 inf
-3.992 9.225 3.696 0.775 0.469 42.492 42.151
-2.992 11.311 2.210 0.582 0.142 42.597 42.078
-1.992 14.593 1.641 0.433 0.053 42.782 42.097
-0.992 14.857 1.552 0.426 0.049 42.799 42.083
0.008 15.168 1.317 0.416 0.038 42.814 42.032
1.008 14.206 1.442 0.451 0.050 42.770 42.046
2.008 14.282 1.260 0.448 0.043 42.775 41.983
3.008 14.468 1.234 0.443 0.041 42.787 41.981
4.008 14.532 1.104 0.441 0.036 42.790 41.940
5.008 13.706 1.343 0.475 0.052 42.753 42.001
6.008 13.994 1.312 0.465 0.048 42.771 42.001
7.008 14.131 1.282 0.461 0.046 42.780 41.997
8.008 14.116 1.177 0.461 0.042 42.779 41.962
9.008 13.504 1.265 0.488 0.051 42.752 41.975
10.008 13.574 1.191 0.486 0.048 42.757 41.948
11.008 13.694 1.175 0.482 0.047 42.764 41.948
12.008 13.633 1.094 0.484 0.044 42.761 41.917
13.008 13.190 1.121 0.506 0.049 42.742 41.914
14.008 13.214 1.061 0.505 0.047 42.743 41.888
15.008 13.325 1.056 0.501 0.045 42.751 41.891
16.008 13.235 0.993 0.505 0.043 42.746 41.862
17.008 12.890 1.002 0.523 0.047 42.731 41.856
18.008 12.892 0.953 0.523 0.045 42.731 41.831
19.008 12.751 0.951 0.531 0.047 42.726 41.827
20.008 12.851 0.951 0.527 0.046 42.733 41.831
21.008 12.760 0.904 0.532 0.044 42.728 41.807
22.008 12.505 0.900 0.547 0.047 42.717 41.798
23.008 12.489 0.860 0.548 0.045 42.716 41.774
24.008 12.392 0.851 0.554 0.045 42.712 41.767
25.008 12.460 0.844 0.551 0.045 42.717 41.766
26.008 12.365 0.808 0.556 0.044 42.712 41.745
27.008 12.170 0.801 0.569 0.045 42.704 41.736
28.008 12.156 0.770 0.570 0.044 42.703 41.715
29.008 12.087 0.760 0.574 0.044 42.701 41.707
30.008 12.131 0.750 0.572 0.043 42.704 41.704
31.008 12.033 0.724 0.578 0.042 42.699 41.685
32.008 11.906 0.709 0.587 0.043 42.694 41.673
33.008 11.942 0.691 0.585 0.042 42.696 41.661
34.008 11.890 0.682 0.589 0.041 42.694 41.654
35.008 11.916 0.672 0.588 0.041 42.696 41.648
36.008 11.814 0.653 0.595 0.040 42.691 41.632
37.008 11.700 0.642 0.603 0.041 42.686 41.623
38.008 11.751 0.631 0.600 0.040 42.690 41.616
39.008 11.711 0.623 0.603 0.040 42.688 41.610
40.008 11.723 0.612 0.603 0.039 42.689 41.602
41.008 11.619 0.599 0.610 0.039 42.684 41.589
42.008 11.548 0.586 0.616 0.039 42.681 41.578
43.008 11.533 0.569 0.616 0.038 42.680 41.562
44.008 11.502 0.562 0.619 0.038 42.679 41.556
45.008 11.505 0.552 0.619 0.037 42.680 41.547
46.008 11.401 0.544 0.627 0.038 42.674 41.537
47.008 11.329 0.535 0.633 0.038 42.672 41.528
48.008 11.274 0.518 0.636 0.037 42.668 41.508
49.008 11.246 0.511 0.638 0.037 42.667 41.502
50.008 11.242 0.503 0.639 0.036 42.667 41.493
51.008 11.142 0.499 0.647 0.037 42.662 41.485
52.008 11.070 0.493 0.653 0.037 42.659 41.479
53.008 10.988 0.478 0.658 0.037 42.654 41.457
54.008 10.961 0.471 0.661 0.037 42.653 41.450
55.008 10.955 0.464 0.661 0.036 42.652 41.441
56.008 10.872 0.459 0.668 0.037 42.648 41.433
57.008 10.828 0.451 0.673 0.037 42.647 41.426
58.008 10.741 0.439 0.679 0.037 42.641 41.405
59.008 10.716 0.433 0.681 0.036 42.640 41.398
60.008 10.710 0.426 0.682 0.036 42.639 41.390
61.008 10.641 0.421 0.688 0.036 42.636 41.381
62.008 10.627 0.414 0.690 0.036 42.636 41.376
63.008 10.534 0.404 0.697 0.036 42.629 41.355
64.008 10.510 0.399 0.699 0.036 42.628 41.349
65.008 10.502 0.393 0.700 0.035 42.628 41.341
66.008 10.445 0.388 0.705 0.035 42.625 41.333
67.008 10.389 0.386 0.711 0.036 42.623 41.329
68.008 10.287 0.378 0.720 0.036 42.616 41.309
69.008 10.262 0.373 0.722 0.036 42.615 41.303
70.008 10.255 0.368 0.723 0.035 42.615 41.295
71.008 10.208 0.362 0.728 0.035 42.612 41.287
72.008 10.185 0.358 0.730 0.035 42.612 41.281
73.008 10.113 0.350 0.737 0.035 42.607 41.263
74.008 10.099 0.346 0.738 0.035 42.606 41.259
75.008 10.084 0.341 0.740 0.035 42.605 41.250
76.008 10.045 0.336 0.744 0.034 42.604 41.242
77.008 10.051 0.333 0.743 0.034 42.604 41.240
78.008 9.950 0.328 0.752 0.035 42.597 41.223
79.008 9.927 0.324 0.755 0.034 42.596 41.217
80.008 9.906 0.320 0.757 0.034 42.594 41.208
81.008 9.875 0.315 0.760 0.034 42.593 41.201
82.008 9.896 0.315 0.758 0.034 42.594 41.202
83.008 9.815 0.310 0.765 0.034 42.588 41.186
84.008 9.800 0.306 0.767 0.034 42.587 41.181
85.008 9.773 0.302 0.770 0.034 42.586 41.172
86.008 9.747 0.298 0.773 0.033 42.585 41.165
87.008 9.783 0.300 0.768 0.033 42.586 41.171
88.008 9.720 0.295 0.774 0.033 42.581 41.156
89.008 9.709 0.292 0.776 0.033 42.581 41.152
-5.989 9.677 0.289 0.779 0.033 42.579 41.143
-4.989 9.655 0.285 0.782 0.033 42.578 41.136
-3.989 9.699 0.289 0.776 0.033 42.579 41.147
-2.989 9.648 0.284 0.781 0.033 42.576 41.133
-1.989 9.640 0.282 0.782 0.033 42.575 41.129
-0.989 9.602 0.279 0.786 0.033 42.573 41.120
0.011 9.583 0.275 0.788 0.032 42.572 41.114
1.011 9.612 0.277 0.784 0.032 42.573 41.119
2.011 9.555 0.272 0.790 0.032 42.569 41.105
3.011 9.546 0.270 0.791 0.032 42.569 41.102
4.011 9.503 0.268 0.796 0.032 42.566 41.092
5.011 9.488 0.264 0.798 0.032 42.565 41.087
6.011 9.504 0.264 0.795 0.032 42.565 41.088
7.011 9.416 0.262 0.805 0.033 42.559 41.075
8.011 9.399 0.260 0.807 0.032 42.559 41.070
9.011 9.353 0.258 0.812 0.033 42.556 41.061
10.011 9.342 0.254 0.813 0.032 42.555 41.056
11.011 9.348 0.253 0.812 0.032 42.555 41.055
12.011 9.233 0.255 0.825 0.034 42.547 41.046
13.011 9.205 0.252 0.829 0.034 42.546 41.039
14.011 9.159 0.250 0.834 0.034 42.543 41.030
15.011 9.151 0.247 0.836 0.034 42.543 41.025
16.011 9.150 0.246 0.836 0.033 42.543 41.023
17.011 9.013 0.252 0.852 0.036 42.533 41.017
18.011 8.973 0.248 0.858 0.036 42.531 41.008
19.011 8.927 0.246 0.864 0.036 42.528 40.998
20.011 8.921 0.243 0.864 0.036 42.528 40.994
21.011 8.919 0.242 0.865 0.035 42.528 40.992
22.011 8.774 0.249 0.883 0.039 42.518 40.986
23.011 8.729 0.245 0.891 0.039 42.516 40.976
24.011 8.684 0.243 0.897 0.039 42.513 40.966
25.011 8.681 0.240 0.897 0.038 42.513 40.963
26.011 8.677 0.239 0.898 0.038 42.513 40.960
27.011 8.570 0.240 0.913 0.040 42.506 40.948
28.011 8.547 0.237 0.917 0.040 42.505 40.942
29.011 8.502 0.236 0.923 0.040 42.502 40.932
30.011 8.501 0.233 0.924 0.040 42.502 40.929
31.011 8.497 0.232 0.925 0.040 42.502 40.927
32.011 8.414 0.231 0.937 0.041 42.496 40.913
33.011 8.402 0.229 0.939 0.041 42.496 40.909
34.011 8.357 0.227 0.946 0.041 42.493 40.900
35.011 8.356 0.225 0.946 0.041 42.493 40.897
36.011 8.355 0.224 0.946 0.040 42.493 40.895
37.011 8.273 0.223 0.959 0.042 42.487 40.882
38.011 8.263 0.222 0.961 0.042 42.487 40.879
39.011 8.217 0.220 0.969 0.042 42.484 40.869
40.011 8.217 0.218 0.968 0.042 42.484 40.867
41.011 8.218 0.217 0.968 0.041 42.484 40.865
42.011 8.138 0.217 0.982 0.043 42.479 40.852
43.011 8.130 0.215 0.983 0.043 42.478 40.849
44.011 8.083 0.214 0.991 0.043 42.475 40.839
45.011 8.084 0.212 0.991 0.043 42.475 40.838
46.011 8.087 0.212 0.990 0.042 42.475 40.837
47.011 8.009 0.211 1.004 0.044 42.470 40.824
48.011 8.002 0.210 1.005 0.044 42.470 40.821
49.011 7.964 0.209 1.012 0.044 42.468 40.812
50.011 7.967 0.207 1.011 0.044 42.468 40.811
51.011 7.972 0.206 1.010 0.043 42.468 40.810
52.011 7.894 0.206 1.024 0.045 42.463 40.798
53.011 7.889 0.205 1.025 0.045 42.462 40.795
54.011 7.858 0.203 1.031 0.045 42.460 40.787
55.011 7.863 0.202 1.030 0.044 42.461 40.786
56.011 7.869 0.202 1.028 0.044 42.460 40.786
57.011 7.793 0.201 1.043 0.046 42.456 40.774
58.011 7.788 0.201 1.043 0.046 42.455 40.772
59.011 7.763 0.199 1.048 0.046 42.454 40.763
60.011 7.769 0.198 1.047 0.045 42.454 40.763
61.011 7.776 0.197 1.045 0.045 42.454 40.764
62.011 7.701 0.197 1.060 0.046 42.449 40.752
63.011 7.697 0.197 1.060 0.046 42.449 40.750
64.011 7.671 0.195 1.065 0.046 42.447 40.742
65.011 7.677 0.194 1.064 0.046 42.447 40.741
66.011 7.683 0.194 1.062 0.046 42.447 40.742
67.011 7.616 0.193 1.076 0.047 42.443 40.730
68.011 7.614 0.193 1.076 0.047 42.443 40.729
69.011 7.587 0.191 1.082 0.047 42.441 40.721
70.011 7.592 0.190 1.080 0.047 42.441 40.720
71.011 7.599 0.190 1.078 0.046 42.441 40.721
72.011 7.538 0.189 1.091 0.048 42.438 40.709
73.011 7.538 0.189 1.091 0.047 42.437 40.709
74.011 7.509 0.187 1.097 0.048 42.436 40.701
75.011 7.515 0.186 1.095 0.047 42.436 40.700
76.011 7.521 0.186 1.093 0.047 42.436 40.701
77.011 7.466 0.185 1.106 0.048 42.432 40.690
78.011 7.467 0.185 1.105 0.048 42.432 40.689
79.011 7.437 0.184 1.111 0.048 42.430 40.681
80.011 7.442 0.183 1.110 0.048 42.430 40.681
81.011 7.448 0.182 1.108 0.048 42.430 40.681
82.011 7.397 0.181 1.120 0.048 42.427 40.671
83.011 7.400 0.181 1.119 0.048 42.427 40.671
84.011 7.369 0.180 1.126 0.049 42.425 40.663
85.011 7.373 0.179 1.125 0.048 42.425 40.662
86.011 7.378 0.179 1.123 0.048 42.425 40.663
87.011 7.332 0.178 1.134 0.049 42.423 40.653
88.011 7.336 0.178 1.132 0.049 42.422 40.653
89.011 7.304 0.177 1.140 0.049 42.420 40.645
90.011 7.306 0.176 1.139 0.049 42.420 40.645
91.011 7.312 0.175 1.137 0.049 42.420 40.645
92.011 7.269 0.174 1.147 0.049 42.418 40.635
93.011 7.273 0.175 1.145 0.049 42.418 40.636
94.011 7.240 0.174 1.154 0.050 42.416 40.628
95.011 7.241 0.172 1.153 0.049 42.416 40.627
96.011 7.249 0.173 1.150 0.049 42.416 40.628
97.011 7.203 0.171 1.162 0.050 42.413 40.619
98.011 7.206 0.172 1.160 0.050 42.413 40.619
99.011 7.173 0.171 1.169 0.050 42.411 40.612
100.011 7.174 0.170 1.168 0.050 42.411 40.611
101.011 7.177 0.169 1.167 0.050 42.411 40.610
102.011 7.129 0.168 1.180 0.051 42.408 40.602
103.011 7.130 0.168 1.179 0.051 42.408 40.601
104.011 7.097 0.167 1.187 0.051 42.406 40.594
105.011 7.098 0.166 1.187 0.051 42.406 40.593
106.011 7.098 0.166 1.187 0.051 42.406 40.592
107.011 7.049 0.165 1.200 0.052 42.404 40.584
108.011 7.050 0.165 1.199 0.051 42.403 40.583
109.011 7.017 0.164 1.208 0.052 42.402 40.577
110.011 7.017 0.163 1.208 0.052 42.402 40.575
111.011 7.015 0.162 1.209 0.051 42.402 40.574
112.011 6.971 0.162 1.221 0.052 42.400 40.567
113.011 6.971 0.162 1.221 0.052 42.399 40.566
114.011 6.937 0.161 1.230 0.053 42.398 40.560
115.011 6.937 0.160 1.230 0.053 42.398 40.559
116.011 6.933 0.159 1.232 0.052 42.398 40.557
-0.003 6.893 0.158 1.244 0.053 42.396 40.551
0.997 6.893 0.158 1.243 0.053 42.395 40.549
1.997 6.859 0.157 1.253 0.054 42.394 40.544
2.997 6.858 0.156 1.253 0.054 42.394 40.543
3.997 6.854 0.156 1.255 0.053 42.394 40.541
4.997 6.817 0.155 1.266 0.054 42.392 40.536
5.997 6.818 0.155 1.266 0.054 42.392 40.535
6.997 6.786 0.154 1.275 0.055 42.390 40.530
7.997 6.784 0.153 1.276 0.054 42.390 40.529
8.997 6.781 0.152 1.277 0.054 42.391 40.527
9.997 6.747 0.151 1.288 0.055 42.389 40.522
10.997 6.748 0.151 1.287 0.055 42.389 40.521
11.997 6.719 0.151 1.297 0.055 42.388 40.517
12.997 6.716 0.150 1.298 0.055 42.388 40.516
13.997 6.714 0.149 1.299 0.055 42.388 40.514
14.997 6.682 0.148 1.309 0.056 42.386 40.510
15.997 6.684 0.148 1.308 0.056 42.386 40.509
16.997 6.656 0.147 1.317 0.056 42.385 40.506
17.997 6.654 0.146 1.318 0.056 42.385 40.504
18.997 6.652 0.146 1.319 0.056 42.385 40.502
19.997 6.623 0.145 1.328 0.056 42.384 40.499
20.997 6.623 0.145 1.328 0.056 42.384 40.497
21.997 6.598 0.144 1.337 0.057 42.382 40.495
22.997 6.596 0.143 1.337 0.056 42.382 40.494
23.997 6.596 0.143 1.338 0.056 42.382 40.492
24.997 6.569 0.142 1.347 0.057 42.381 40.489
25.997 6.568 0.142 1.347 0.056 42.381 40.487
26.997 6.544 0.141 1.355 0.057 42.380 40.485
27.997 6.544 0.140 1.355 0.057 42.380 40.484
28.997 6.544 0.140 1.355 0.056 42.380 40.482
29.997 6.519 0.139 1.364 0.057 42.379 40.480
30.997 6.518 0.138 1.365 0.057 42.379 40.478
31.997 6.495 0.138 1.373 0.057 42.379 40.477
32.997 6.497 0.137 1.372 0.057 42.378 40.475
33.997 6.497 0.137 1.372 0.057 42.378 40.474
34.997 6.473 0.136 1.381 0.057 42.378 40.472
35.997 6.473 0.136 1.381 0.057 42.378 40.470
36.997 6.451 0.135 1.389 0.057 42.377 40.469
37.997 6.454 0.134 1.388 0.057 42.377 40.468
38.997 6.455 0.134 1.387 0.057 42.377 40.466
39.997 6.433 0.133 1.395 0.057 42.376 40.465
40.997 6.432 0.133 1.396 0.057 42.376 40.463
41.997 6.412 0.132 1.403 0.057 42.375 40.462
42.997 6.416 0.132 1.401 0.057 42.375 40.461
43.997 6.418 0.131 1.400 0.057 42.375 40.459
44.997 6.396 0.131 1.409 0.057 42.374 40.459
45.997 6.396 0.130 1.409 0.057 42.374 40.457
46.997 6.377 0.130 1.416 0.057 42.373 40.456
47.997 6.382 0.129 1.414 0.057 42.373 40.455
48.997 6.384 0.129 1.412 0.057 42.373 40.453
49.997 6.364 0.129 1.420 0.057 42.372 40.453
50.997 6.364 0.128 1.420 0.057 42.372 40.451
51.997 6.345 0.128 1.427 0.057 42.372 40.450
52.997 6.351 0.127 1.425 0.057 42.372 40.449
53.997 6.352 0.127 1.424 0.057 42.372 40.447
54.997 6.333 0.126 1.432 0.057 42.371 40.447
55.997 6.333 0.126 1.432 0.057 42.371 40.445
56.997 6.316 0.125 1.438 0.057 42.370 40.445
57.997 6.321 0.125 1.436 0.057 42.370 40.444
58.997 6.322 0.125 1.435 0.057 42.370 40.442
59.997 6.304 0.124 1.442 0.057 42.369 40.442
60.997 6.304 0.124 1.442 0.057 42.369 40.440
61.997 6.288 0.123 1.449 0.057 42.369 40.440
62.997 6.293 0.123 1.446 0.057 42.369 40.439
63.997 6.294 0.123 1.445 0.057 42.369 40.437
64.997 6.277 0.122 1.453 0.057 42.368 40.437
65.997 6.277 0.122 1.452 0.057 42.368 40.435
66.997 6.262 0.121 1.459 0.057 42.367 40.435
67.997 6.267 0.121 1.456 0.057 42.367 40.434
68.997 6.268 0.121 1.455 0.057 42.367 40.432
69.997 6.251 0.120 1.462 0.057 42.367 40.432
70.997 6.252 0.120 1.462 0.057 42.367 40.430
71.997 6.237 0.120 1.468 0.057 42.366 40.431
72.997 6.242 0.119 1.465 0.057 42.366 40.429
73.997 6.243 0.119 1.465 0.056 42.366 40.427
74.997 6.227 0.119 1.472 0.057 42.365 40.428
75.997 6.228 0.118 1.471 0.057 42.365 40.426
76.997 6.213 0.118 1.477 0.057 42.365 40.426
77.997 6.219 0.118 1.474 0.057 42.365 40.425
78.997 6.219 0.117 1.474 0.056 42.365 40.423
79.997 6.204 0.117 1.480 0.057 42.364 40.423
80.997 6.205 0.117 1.480 0.057 42.364 40.421
81.997 6.192 0.116 1.485 0.057 42.364 40.422
82.997 6.198 0.116 1.482 0.056 42.364 40.420
83.997 6.198 0.116 1.482 0.056 42.363 40.418
84.997 6.183 0.115 1.488 0.056 42.363 40.419
85.997 6.184 0.115 1.488 0.056 42.363 40.417
86.997 6.173 0.115 1.492 0.056 42.363 40.417
87.997 6.178 0.114 1.490 0.056 42.362 40.416
88.997 6.178 0.114 1.489 0.056 42.362 40.414
89.997 6.164 0.113 1.496 0.056 42.362 40.415
90.997 6.165 0.113 1.495 0.056 42.362 40.413
91.997 6.156 0.113 1.499 0.056 42.362 40.413
92.997 6.161 0.113 1.496 0.056 42.361 40.411
-6.065 6.161 0.112 1.496 0.056 42.361 40.410
-5.065 6.147 0.112 1.502 0.056 42.361 40.410
-4.065 6.148 0.112 1.502 0.056 42.361 40.409
-3.065 6.139 0.111 1.505 0.056 42.361 40.409
-2.065 6.144 0.111 1.503 0.056 42.360 40.407
-1.065 6.144 0.111 1.503 0.055 42.360 40.405
-0.065 6.129 0.110 1.509 0.056 42.360 40.406
0.935 6.130 0.110 1.508 0.056 42.360 40.405
1.935 6.123 0.110 1.512 0.056 42.360 40.405
2.935 6.128 0.110 1.509 0.055 42.359 40.403
3.935 6.128 0.110 1.509 0.055 42.359 40.401
4.935 6.111 0.109 1.516 0.056 42.359 40.403
5.935 6.112 0.109 1.516 0.056 42.359 40.401
6.935 6.104 0.109 1.519 0.056 42.359 40.401
7.935 6.109 0.108 1.516 0.055 42.358 40.400
8.935 6.109 0.108 1.516 0.055 42.358 40.398
9.935 6.092 0.108 1.524 0.056 42.358 40.400
10.935 6.093 0.108 1.523 0.055 42.358 40.398
11.935 6.085 0.107 1.527 0.056 42.357 40.399
12.935 6.090 0.107 1.524 0.055 42.357 40.397
13.935 6.090 0.107 1.524 0.055 42.357 40.395
14.935 6.073 0.107 1.532 0.056 42.357 40.398
15.935 6.074 0.107 1.531 0.055 42.357 40.396
16.935 6.065 0.106 1.535 0.056 42.356 40.396
17.935 6.070 0.106 1.532 0.055 42.356 40.394
18.935 6.070 0.106 1.532 0.055 42.356 40.393
19.935 6.053 0.105 1.540 0.056 42.356 40.395
20.935 6.054 0.105 1.539 0.055 42.356 40.394
21.935 6.046 0.105 1.543 0.056 42.355 40.394
22.935 6.050 0.105 1.540 0.055 42.355 40.392
23.935 6.051 0.105 1.540 0.055 42.355 40.391
24.935 6.034 0.104 1.548 0.056 42.355 40.393
25.935 6.035 0.104 1.547 0.055 42.355 40.391
26.935 6.026 0.104 1.551 0.056 42.354 40.392
27.935 6.031 0.104 1.549 0.055 42.354 40.390
28.935 6.031 0.103 1.549 0.055 42.354 40.389
29.935 6.014 0.103 1.556 0.056 42.354 40.391
30.935 6.015 0.103 1.555 0.055 42.354 40.390
31.935 6.007 0.103 1.559 0.056 42.353 40.390
32.935 6.011 0.103 1.557 0.055 42.353 40.389
33.935 6.011 0.102 1.557 0.055 42.353 40.387
34.935 5.995 0.102 1.565 0.056 42.353 40.390
35.935 5.996 0.102 1.564 0.055 42.353 40.388
36.935 5.987 0.102 1.568 0.056 42.352 40.389
37.935 5.991 0.102 1.566 0.055 42.352 40.387
38.935 5.991 0.101 1.566 0.055 42.352 40.385
39.935 5.975 0.101 1.573 0.056 42.352 40.388
40.935 5.976 0.101 1.572 0.056 42.352 40.387
41.935 5.968 0.101 1.577 0.056 42.351 40.388
42.935 5.971 0.101 1.574 0.055 42.351 40.386
43.935 5.972 0.100 1.574 0.055 42.351 40.384
44.935 5.956 0.100 1.582 0.056 42.351 40.387
45.935 5.957 0.100 1.581 0.056 42.351 40.386
46.935 5.948 0.100 1.585 0.056 42.351 40.387
47.935 5.951 0.100 1.583 0.056 42.350 40.385
48.935 5.952 0.099 1.583 0.055 42.350 40.383
49.935 5.937 0.099 1.590 0.056 42.350 40.386
50.935 5.938 0.099 1.589 0.056 42.350 40.385
51.935 5.929 0.099 1.593 0.056 42.350 40.386
52.935 5.932 0.099 1.592 0.056 42.349 40.384
53.935 5.933 0.099 1.591 0.056 42.349 40.383
54.935 5.918 0.098 1.599 0.056 42.349 40.386
55.935 5.919 0.098 1.598 0.056 42.349 40.384
56.935 5.910 0.098 1.602 0.056 42.349 40.385
57.935 5.913 0.098 1.600 0.056 42.348 40.384
58.935 5.914 0.098 1.599 0.056 42.348 40.382
59.935 5.899 0.098 1.607 0.056 42.348 40.385
60.935 5.900 0.098 1.606 0.056 42.348 40.384
61.935 5.892 0.097 1.610 0.056 42.348 40.385
62.935 5.895 0.097 1.608 0.056 42.347 40.383
63.935 5.896 0.097 1.607 0.056 42.347 40.382
64.935 5.881 0.097 1.615 0.056 42.347 40.385
65.935 5.882 0.097 1.614 0.056 42.347 40.383
66.935 5.874 0.097 1.618 0.056 42.347 40.385
67.935 5.878 0.096 1.616 0.056 42.346 40.383
68.935 5.879 0.096 1.615 0.056 42.346 40.381
69.935 5.864 0.096 1.622 0.056 42.346 40.384
70.935 5.865 0.096 1.621 0.056 42.346 40.383
71.935 5.857 0.096 1.626 0.056 42.346 40.384
72.935 5.862 0.096 1.623 0.056 42.345 40.382
73.935 5.863 0.096 1.621 0.056 42.345 40.381
74.935 5.848 0.096 1.629 0.057 42.345 40.384
75.935 5.849 0.096 1.628 0.056 42.345 40.383
76.935 5.841 0.095 1.633 0.057 42.344 40.384
77.935 5.846 0.095 1.629 0.056 42.344 40.382
78.935 5.848 0.095 1.628 0.056 42.344 40.381
79.935 5.833 0.095 1.635 0.057 42.344 40.384
-5.110 5.834 0.095 1.634 0.057 42.343 40.383
-4.110 5.826 0.095 1.639 0.057 42.343 40.384
-3.110 5.832 0.095 1.635 0.057 42.343 40.382
-2.110 5.834 0.095 1.633 0.056 42.343 40.381
-1.110 5.819 0.095 1.641 0.057 42.343 40.384
-0.110 5.820 0.095 1.640 0.057 42.342 40.383
0.890 5.812 0.094 1.645 0.057 42.342 40.384
1.890 5.818 0.094 1.640 0.057 42.342 40.382
2.890 5.820 0.094 1.639 0.057 42.342 40.381
3.890 5.806 0.094 1.646 0.057 42.341 40.384
4.890 5.807 0.094 1.645 0.057 42.341 40.383
5.890 5.798 0.094 1.650 0.057 42.341 40.385
6.890 5.804 0.094 1.646 0.057 42.341 40.383
7.890 5.806 0.094 1.645 0.057 42.340 40.381
8.890 5.792 0.094 1.652 0.057 42.340 40.385
9.890 5.793 0.094 1.651 0.057 42.340 40.384
10.890 5.784 0.094 1.655 0.057 42.340 40.385
11.890 5.789 0.094 1.652 0.057 42.339 40.383
12.890 5.792 0.094 1.650 0.057 42.339 40.382
13.890 5.778 0.093 1.658 0.057 42.339 40.385
14.890 5.779 0.093 1.657 0.057 42.339 40.384
15.890 5.770 0.093 1.661 0.058 42.338 40.386
16.890 5.775 0.093 1.658 0.057 42.338 40.384
17.890 5.777 0.093 1.656 0.057 42.338 40.383
18.890 5.764 0.093 1.663 0.058 42.338 40.386
19.890 5.765 0.093 1.662 0.058 42.337 40.385
20.890 5.756 0.093 1.667 0.058 42.337 40.387
21.890 5.761 0.093 1.664 0.058 42.337 40.385
22.890 5.764 0.093 1.661 0.058 42.336 40.384
23.890 5.765 0.093 1.660 0.058 42.336 40.383
24.890 5.756 0.093 1.664 0.058 42.336 40.385
25.890 5.763 0.093 1.660 0.058 42.336 40.383
26.890 5.766 0.093 1.657 0.058 42.335 40.382
27.890 5.767 0.094 1.656 0.058 42.335 40.381
28.890 5.759 0.093 1.660 0.058 42.334 40.383
29.890 5.766 0.094 1.655 0.058 42.334 40.381
30.890 5.770 0.094 1.652 0.058 42.333 40.380
31.890 5.771 0.094 1.650 0.058 42.333 40.380
32.890 5.761 0.094 1.656 0.058 42.333 40.382
33.890 5.769 0.094 1.650 0.058 42.332 40.380
34.890 5.771 0.095 1.648 0.058 42.332 40.380
35.890 5.759 0.094 1.655 0.058 42.332 40.382
36.890 5.767 0.095 1.649 0.058 42.331 40.380
37.890 5.769 0.095 1.647 0.058 42.331 40.380
38.890 5.756 0.095 1.654 0.058 42.330 40.383
39.890 5.765 0.095 1.648 0.058 42.330 40.382
40.890 5.767 0.095 1.646 0.058 42.329 40.382
41.890 5.752 0.095 1.654 0.059 42.329 40.385
42.890 5.761 0.095 1.648 0.059 42.328 40.383
43.890 5.763 0.096 1.645 0.059 42.328 40.384
44.890 5.747 0.096 1.654 0.059 42.327 40.388
45.890 5.756 0.096 1.648 0.059 42.327 40.386
46.890 5.758 0.097 1.645 0.059 42.326 40.386
47.890 5.740 0.097 1.655 0.060 42.326 40.391
48.890 5.749 0.097 1.649 0.060 42.325 40.390
49.890 5.751 0.098 1.646 0.060 42.325 40.390
50.890 5.729 0.098 1.658 0.061 42.324 40.396
51.890 5.739 0.098 1.651 0.061 42.324 40.394
52.890 5.741 0.099 1.648 0.061 42.323 40.395
53.890 5.752 0.099 1.641 0.061 42.322 40.393
54.890 5.755 0.100 1.637 0.061 42.321 40.395
55.890 5.766 0.100 1.629 0.061 42.320 40.393
56.890 5.770 0.102 1.625 0.061 42.319 40.395
57.890 5.782 0.102 1.617 0.061 42.318 40.393
58.890 5.786 0.104 1.612 0.062 42.317 40.395
59.890 5.798 0.104 1.604 0.061 42.316 40.394
60.890 5.812 0.105 1.595 0.061 42.316 40.392
61.890 5.828 0.106 1.585 0.061 42.315 40.391
62.890 5.845 0.106 1.573 0.060 42.314 40.389
63.890 5.865 0.108 1.561 0.060 42.313 40.388
64.890 5.886 0.109 1.548 0.060 42.312 40.388
65.890 5.909 0.110 1.534 0.060 42.311 40.387
66.890 5.934 0.112 1.519 0.059 42.309 40.388
67.890 5.962 0.114 1.503 0.059 42.308 40.388
68.890 5.991 0.116 1.485 0.059 42.307 40.390
69.890 6.024 0.118 1.467 0.059 42.305 40.391
70.890 6.058 0.120 1.448 0.059 42.304 40.394
71.890 6.096 0.123 1.427 0.059 42.302 40.398
72.890 6.136 0.126 1.406 0.058 42.301 40.402
73.890 6.179 0.130 1.384 0.058 42.299 40.408
74.890 6.225 0.133 1.361 0.058 42.297 40.414
75.890 6.275 0.137 1.337 0.058 42.296 40.422
76.890 6.328 0.142 1.312 0.058 42.294 40.432
77.890 6.384 0.147 1.287 0.058 42.292 40.443
78.890 6.445 0.152 1.260 0.057 42.291 40.456
79.890 6.509 0.158 1.233 0.057 42.289 40.470
80.890 6.577 0.164 1.206 0.057 42.288 40.487
81.890 6.650 0.171 1.178 0.057 42.286 40.505
82.890 6.728 0.178 1.149 0.057 42.285 40.525
