"Time (MJD)" "Temp./1e3 (K)" "Temp. Err." "Radius/1e15 (cm)" "Radius Err." "Log10(Bol. Lum)" "Log10(Bol. Err)"
-5.000 40.000 12.619 0.105 0.023 43.307 43.226
-4.000 35.233 2.290 0.166 0.007 43.482 42.713
-3.000 32.202 1.802 0.198 0.008 43.478 42.635
-2.000 11.596 0.168 0.549 0.009 42.590 40.982
-1.000 10.658 0.133 0.628 0.010 42.559 40.852
0.000 10.382 0.084 0.660 0.007 42.557 40.648
1.000 10.514 0.114 0.648 0.009 42.564 40.789
2.000 10.517 0.109 0.640 0.008 42.553 40.759
3.000 10.716 0.110 0.620 0.008 42.558 40.767
4.000 10.347 0.098 0.643 0.008 42.528 40.689
5.000 9.677 0.082 0.702 0.008 42.488 40.566
6.000 9.382 0.075 0.722 0.008 42.459 40.492
7.000 9.522 0.076 0.703 0.008 42.462 40.501
8.000 9.428 0.072 0.717 0.008 42.461 40.481
9.000 9.387 0.071 0.723 0.008 42.461 40.471
10.000 9.134 0.065 0.753 0.008 42.449 40.420
11.000 8.883 0.060 0.775 0.008 42.426 40.359
12.000 8.623 0.056 0.801 0.008 42.402 40.297
13.000 8.418 0.053 0.824 0.008 42.386 40.250
14.000 8.172 0.049 0.855 0.008 42.366 40.191
15.000 7.953 0.046 0.884 0.008 42.347 40.138
16.000 7.787 0.044 0.911 0.008 42.337 40.101
17.000 7.642 0.042 0.938 0.008 42.330 40.070
18.000 7.503 0.040 0.966 0.009 42.324 40.041
19.000 7.365 0.039 0.994 0.009 42.316 40.011
20.000 7.234 0.037 1.024 0.009 42.311 39.986
21.000 7.192 0.037 1.022 0.009 42.299 39.969
22.000 7.053 0.036 1.039 0.009 42.279 39.928
23.000 6.948 0.034 1.065 0.009 42.275 39.907
24.000 6.871 0.034 1.089 0.010 42.275 39.897
25.000 6.853 0.034 1.088 0.010 42.269 39.892
26.000 6.859 0.034 1.085 0.010 42.269 39.895
27.000 6.823 0.034 1.094 0.010 42.266 39.891
28.000 6.782 0.034 1.097 0.010 42.259 39.880
29.000 6.677 0.033 1.124 0.010 42.253 39.861
30.000 6.585 0.032 1.153 0.010 42.251 39.849
31.000 6.516 0.031 1.169 0.010 42.245 39.838
32.000 6.460 0.031 1.182 0.011 42.239 39.828
33.000 6.458 0.031 1.182 0.011 42.239 39.831
34.000 6.462 0.032 1.163 0.011 42.226 39.823
35.000 6.322 0.030 1.210 0.011 42.222 39.807
36.000 6.317 0.030 1.204 0.011 42.216 39.805
37.000 6.301 0.030 1.202 0.011 42.210 39.802
38.000 6.171 0.029 1.245 0.012 42.204 39.790
39.000 6.153 0.029 1.243 0.012 42.198 39.787
40.000 6.132 0.030 1.243 0.012 42.192 39.784
41.000 6.112 0.030 1.242 0.012 42.186 39.782
42.000 6.060 0.030 1.256 0.012 42.181 39.780
43.000 6.017 0.030 1.261 0.012 42.172 39.775
44.000 5.958 0.029 1.276 0.013 42.165 39.772
45.000 5.900 0.029 1.291 0.013 42.158 39.771
46.000 5.846 0.029 1.307 0.013 42.153 39.772
47.000 5.704 0.028 1.358 0.014 42.144 39.774
48.000 5.686 0.028 1.349 0.014 42.132 39.771
49.000 5.683 0.029 1.332 0.014 42.120 39.768
50.000 5.762 0.030 1.276 0.014 42.107 39.761
51.000 5.629 0.030 1.322 0.015 42.097 39.767
52.000 5.565 0.029 1.326 0.015 42.080 39.765
53.000 5.505 0.029 1.305 0.015 42.047 39.748
54.000 5.292 0.028 1.369 0.016 42.020 39.754
55.000 5.255 0.028 1.355 0.017 41.999 39.749
56.000 5.244 0.028 1.304 0.016 41.962 39.726
57.000 5.195 0.029 1.260 0.016 41.916 39.699
58.000 5.122 0.029 1.227 0.016 41.868 39.673
59.000 5.069 0.029 1.174 0.016 41.812 39.638
60.000 5.012 0.029 1.123 0.016 41.753 39.602
61.000 4.877 0.029 1.125 0.016 41.708 39.593
62.000 4.753 0.029 1.122 0.017 41.661 39.582
63.000 4.649 0.029 1.106 0.017 41.610 39.567
64.000 4.603 0.029 1.108 0.018 41.594 39.571
65.000 4.568 0.029 1.108 0.018 41.581 39.576
66.000 4.537 0.030 1.104 0.019 41.566 39.579
67.000 4.511 0.030 1.096 0.019 41.549 39.580
68.000 4.526 0.031 1.068 0.019 41.533 39.573
69.000 4.545 0.032 1.037 0.019 41.514 39.564
70.000 4.564 0.033 1.013 0.019 41.502 39.560
71.000 4.582 0.034 0.997 0.020 41.494 39.561
72.000 4.601 0.035 0.981 0.020 41.487 39.562
73.000 4.620 0.037 0.965 0.020 41.480 39.563
74.000 4.639 0.038 0.949 0.020 41.473 39.564
75.000 4.658 0.039 0.934 0.020 41.466 39.565
76.000 4.677 0.040 0.919 0.020 41.459 39.565
77.000 4.697 0.042 0.904 0.020 41.452 39.565
78.000 4.716 0.043 0.889 0.021 41.445 39.565
79.000 4.736 0.044 0.875 0.021 41.439 39.565
80.000 4.746 0.045 0.866 0.021 41.433 39.567
81.000 4.756 0.046 0.857 0.021 41.427 39.569
82.000 4.766 0.048 0.848 0.021 41.422 39.571
83.000 4.776 0.049 0.839 0.022 41.416 39.573
84.000 4.785 0.050 0.830 0.022 41.411 39.575
85.000 4.795 0.051 0.822 0.022 41.406 39.577
86.000 4.804 0.052 0.814 0.022 41.400 39.578
87.000 4.813 0.053 0.806 0.022 41.395 39.579
88.000 4.822 0.054 0.798 0.023 41.389 39.580
89.000 4.831 0.056 0.790 0.023 41.384 39.581
90.000 4.840 0.057 0.782 0.023 41.379 39.582
91.000 4.849 0.058 0.774 0.023 41.373 39.583
92.000 4.858 0.059 0.767 0.023 41.368 39.583
93.000 4.867 0.060 0.759 0.023 41.363 39.584
94.000 4.876 0.061 0.752 0.023 41.358 39.584
95.000 4.885 0.063 0.745 0.024 41.352 39.584
96.000 4.893 0.064 0.738 0.024 41.347 39.584
97.000 4.902 0.065 0.731 0.024 41.342 39.583
98.000 4.911 0.066 0.724 0.024 41.337 39.583
99.000 4.919 0.067 0.717 0.024 41.331 39.582
100.000 4.928 0.068 0.710 0.024 41.326 39.581
101.000 4.936 0.069 0.704 0.024 41.321 39.580
102.000 4.945 0.070 0.697 0.024 41.316 39.579
103.000 4.954 0.071 0.690 0.024 41.311 39.578
104.000 4.962 0.072 0.684 0.024 41.306 39.577
105.000 4.971 0.073 0.678 0.024 41.300 39.575
106.000 4.979 0.075 0.671 0.024 41.295 39.573
107.000 4.988 0.076 0.665 0.024 41.290 39.572
108.000 4.996 0.077 0.659 0.024 41.285 39.570
109.000 5.005 0.078 0.653 0.025 41.280 39.568
110.000 5.013 0.079 0.647 0.025 41.275 39.565
111.000 5.022 0.080 0.641 0.025 41.270 39.563
112.000 5.030 0.080 0.635 0.025 41.265 39.560
113.000 5.039 0.081 0.629 0.024 41.259 39.558
114.000 5.047 0.082 0.623 0.024 41.254 39.555
115.000 5.056 0.083 0.618 0.024 41.249 39.552
116.000 5.064 0.084 0.612 0.024 41.244 39.549
117.000 5.073 0.085 0.606 0.024 41.239 39.546
118.000 5.081 0.086 0.601 0.024 41.234 39.543
119.000 5.089 0.087 0.595 0.024 41.229 39.539
120.000 5.098 0.088 0.590 0.024 41.224 39.536
121.000 5.106 0.088 0.584 0.024 41.219 39.532
122.000 5.115 0.089 0.579 0.024 41.214 39.528
123.000 5.123 0.090 0.574 0.024 41.209 39.524
124.000 5.132 0.091 0.569 0.024 41.204 39.520
125.000 5.140 0.091 0.564 0.024 41.198 39.516
126.000 5.148 0.092 0.558 0.024 41.193 39.512
127.000 5.157 0.093 0.553 0.024 41.188 39.507
128.000 5.165 0.093 0.548 0.023 41.183 39.503
129.000 5.173 0.094 0.543 0.023 41.178 39.498
130.000 5.182 0.095 0.539 0.023 41.173 39.494
131.000 5.190 0.095 0.534 0.023 41.168 39.489
132.000 5.198 0.096 0.529 0.023 41.163 39.484
133.000 5.206 0.096 0.524 0.023 41.158 39.479
134.000 5.214 0.097 0.520 0.023 41.153 39.474
135.000 5.223 0.097 0.515 0.022 41.148 39.469
136.000 5.231 0.098 0.511 0.022 41.143 39.463
137.000 5.239 0.098 0.506 0.022 41.138 39.458
138.000 5.247 0.099 0.502 0.022 41.133 39.452
139.000 5.255 0.099 0.497 0.022 41.128 39.447
140.000 5.263 0.099 0.493 0.022 41.123 39.441
141.000 5.271 0.100 0.488 0.021 41.118 39.435
142.000 5.279 0.100 0.484 0.021 41.113 39.429
143.000 5.287 0.100 0.480 0.021 41.108 39.423
144.000 5.295 0.101 0.476 0.021 41.103 39.417
145.000 5.302 0.101 0.472 0.021 41.098 39.410
146.000 5.310 0.101 0.468 0.021 41.093 39.404
147.000 5.318 0.101 0.464 0.020 41.088 39.398
148.000 5.325 0.101 0.460 0.020 41.083 39.391
149.000 5.333 0.102 0.456 0.020 41.078 39.384
150.000 5.340 0.102 0.452 0.020 41.073 39.378
151.000 5.348 0.102 0.448 0.020 41.068 39.371
152.000 5.355 0.102 0.444 0.019 41.063 39.364
153.000 5.363 0.102 0.441 0.019 41.059 39.357
154.000 5.370 0.102 0.437 0.019 41.054 39.350
155.000 5.377 0.102 0.433 0.019 41.049 39.342
156.000 5.384 0.102 0.430 0.018 41.044 39.335
157.000 5.391 0.102 0.426 0.018 41.039 39.328
158.000 5.398 0.101 0.423 0.018 41.034 39.320
159.000 5.405 0.101 0.419 0.018 41.029 39.312
160.000 5.412 0.101 0.416 0.018 41.024 39.305
161.000 5.418 0.101 0.412 0.017 41.019 39.297
162.000 5.425 0.101 0.409 0.017 41.014 39.289
163.000 5.431 0.100 0.406 0.017 41.009 39.281
164.000 5.438 0.100 0.403 0.017 41.004 39.273
165.000 5.444 0.100 0.399 0.017 41.000 39.265
166.000 5.450 0.100 0.396 0.016 40.995 39.257
167.000 5.456 0.099 0.393 0.016 40.990 39.248
168.000 5.462 0.099 0.390 0.016 40.985 39.240
169.000 5.468 0.098 0.387 0.016 40.980 39.231
170.000 5.474 0.098 0.384 0.015 40.975 39.223
171.000 5.480 0.097 0.381 0.015 40.970 39.214
172.000 5.485 0.097 0.378 0.015 40.965 39.205
173.000 5.490 0.096 0.376 0.015 40.961 39.197
174.000 5.496 0.096 0.373 0.015 40.956 39.188
175.000 5.501 0.095 0.370 0.014 40.951 39.179
176.000 5.506 0.095 0.367 0.014 40.946 39.170
177.000 5.510 0.094 0.365 0.014 40.941 39.161
178.000 5.515 0.094 0.362 0.014 40.936 39.151
179.000 5.520 0.093 0.359 0.013 40.931 39.142
180.000 5.524 0.092 0.357 0.013 40.927 39.133
181.000 5.528 0.092 0.354 0.013 40.922 39.124
182.000 5.532 0.091 0.352 0.013 40.917 39.114
183.000 5.536 0.090 0.349 0.013 40.912 39.105
184.000 5.539 0.090 0.347 0.012 40.908 39.096
185.000 5.542 0.089 0.345 0.012 40.903 39.087
186.000 5.545 0.088 0.343 0.012 40.898 39.079
187.000 5.548 0.088 0.341 0.012 40.894 39.070
188.000 5.550 0.087 0.338 0.012 40.889 39.060
189.000 5.557 0.086 0.336 0.012 40.885 39.051
190.000 5.564 0.086 0.334 0.011 40.881 39.042
191.000 5.572 0.085 0.331 0.011 40.877 39.032
192.000 5.578 0.085 0.329 0.011 40.872 39.023
193.000 5.585 0.084 0.326 0.011 40.868 39.014
194.000 5.591 0.084 0.324 0.011 40.864 39.004
195.000 5.596 0.083 0.322 0.011 40.860 38.995
196.000 5.614 0.083 0.318 0.010 40.856 38.985
197.000 5.635 0.083 0.315 0.010 40.852 38.975
198.000 5.657 0.083 0.311 0.010 40.849 38.965
199.000 5.679 0.083 0.307 0.010 40.845 38.955
200.000 5.701 0.084 0.303 0.010 40.841 38.943
201.000 5.724 0.084 0.299 0.009 40.835 38.932
202.000 5.748 0.084 0.295 0.009 40.830 38.920
203.000 5.772 0.084 0.291 0.009 40.825 38.908
204.000 5.794 0.084 0.287 0.009 40.820 38.898
205.000 5.815 0.084 0.283 0.009 40.816 38.888
206.000 5.836 0.084 0.280 0.009 40.812 38.878
207.000 5.857 0.085 0.277 0.008 40.807 38.868
208.000 5.857 0.084 0.275 0.008 40.802 38.859
209.000 5.849 0.083 0.274 0.008 40.796 38.849
210.000 5.842 0.082 0.273 0.008 40.790 38.839
211.000 5.833 0.081 0.271 0.008 40.784 38.830
212.000 5.823 0.080 0.270 0.008 40.778 38.820
213.000 5.811 0.079 0.270 0.008 40.771 38.811
214.000 5.829 0.079 0.267 0.008 40.768 38.803
215.000 5.859 0.079 0.264 0.007 40.766 38.796
216.000 5.899 0.080 0.259 0.007 40.761 38.785
217.000 5.948 0.081 0.252 0.007 40.754 38.771
218.000 5.971 0.081 0.249 0.007 40.749 38.761
219.000 5.988 0.082 0.246 0.007 40.742 38.750
220.000 6.014 0.083 0.241 0.007 40.732 38.735
221.000 6.041 0.083 0.236 0.007 40.724 38.722
222.000 6.066 0.084 0.232 0.007 40.717 38.712
223.000 6.075 0.083 0.230 0.006 40.712 38.704
224.000 6.078 0.083 0.230 0.006 40.710 38.699
225.000 6.081 0.082 0.229 0.006 40.707 38.693
226.000 6.084 0.081 0.228 0.006 40.704 38.688
227.000 6.087 0.080 0.227 0.006 40.701 38.683
228.000 6.090 0.079 0.225 0.006 40.697 38.677
229.000 6.129 0.080 0.222 0.006 40.693 38.672
230.000 6.168 0.081 0.218 0.006 40.689 38.666
231.000 6.221 0.082 0.213 0.006 40.685 38.661
232.000 6.288 0.084 0.207 0.005 40.680 38.658
233.000 6.358 0.085 0.202 0.005 40.675 38.656
234.000 6.432 0.087 0.196 0.005 40.670 38.657
235.000 6.502 0.089 0.191 0.005 40.666 38.659
236.000 6.557 0.090 0.187 0.005 40.662 38.662
237.000 6.597 0.091 0.184 0.005 40.659 38.663
238.000 6.637 0.093 0.181 0.005 40.655 38.665
239.000 6.677 0.094 0.178 0.005 40.652 38.667
240.000 6.713 0.095 0.175 0.005 40.648 38.670
241.000 6.652 0.093 0.176 0.005 40.637 38.649
242.000 6.560 0.090 0.179 0.005 40.624 38.625
243.000 6.472 0.088 0.181 0.005 40.614 38.604
244.000 6.382 0.085 0.184 0.005 40.604 38.586
245.000 6.288 0.082 0.188 0.005 40.594 38.570
246.000 6.198 0.079 0.191 0.005 40.585 38.557
247.000 6.190 0.080 0.192 0.005 40.584 38.557
248.000 6.183 0.080 0.192 0.005 40.583 38.558
249.000 6.279 0.084 0.185 0.005 40.580 38.563
250.000 6.398 0.089 0.177 0.005 40.575 38.573
251.000 6.424 0.090 0.175 0.005 40.569 38.572
252.000 6.452 0.092 0.172 0.005 40.563 38.573
253.000 6.480 0.094 0.169 0.005 40.557 38.575
254.000 6.508 0.096 0.167 0.005 40.551 38.577
255.000 6.536 0.098 0.164 0.005 40.546 38.580
256.000 6.564 0.100 0.162 0.005 40.540 38.583
257.000 6.580 0.102 0.160 0.005 40.535 38.585
258.000 6.595 0.104 0.158 0.005 40.530 38.588
259.000 6.609 0.107 0.157 0.005 40.524 38.591
260.000 6.623 0.110 0.155 0.005 40.518 38.593
261.000 6.637 0.113 0.153 0.005 40.511 38.595
262.000 6.649 0.116 0.151 0.005 40.504 38.598
263.000 6.652 0.119 0.150 0.005 40.496 38.597
264.000 6.638 0.121 0.149 0.005 40.486 38.592
265.000 6.691 0.125 0.145 0.005 40.480 38.603
266.000 6.756 0.129 0.142 0.005 40.476 38.618
267.000 6.822 0.134 0.139 0.005 40.472 38.634
268.000 6.888 0.139 0.135 0.005 40.467 38.650
269.000 6.953 0.144 0.132 0.005 40.462 38.666
270.000 6.903 0.143 0.133 0.005 40.455 38.653
271.000 6.823 0.142 0.135 0.005 40.448 38.634
272.000 6.774 0.141 0.136 0.005 40.442 38.622
273.000 6.727 0.141 0.136 0.005 40.433 38.609
274.000 6.686 0.142 0.136 0.005 40.423 38.598
275.000 6.695 0.145 0.135 0.005 40.415 38.598
276.000 6.702 0.148 0.133 0.005 40.406 38.598
277.000 6.700 0.151 0.132 0.005 40.397 38.595
278.000 6.697 0.153 0.131 0.005 40.388 38.592
279.000 6.694 0.156 0.129 0.005 40.379 38.589
280.000 6.692 0.159 0.128 0.005 40.370 38.586
281.000 6.534 0.174 0.132 0.006 40.357 38.604
282.000 6.566 0.176 0.131 0.006 40.354 38.612
283.000 6.590 0.177 0.129 0.006 40.351 38.618
284.000 6.612 0.180 0.128 0.006 40.346 38.622
285.000 6.630 0.182 0.126 0.006 40.341 38.625
286.000 6.631 0.185 0.125 0.006 40.333 38.622
287.000 6.607 0.187 0.124 0.006 40.320 38.612
288.000 6.571 0.205 0.123 0.007 40.306 38.643
289.000 6.599 0.209 0.121 0.007 40.298 38.648
290.000 6.681 0.215 0.118 0.007 40.297 38.668
291.000 6.763 0.221 0.115 0.007 40.296 38.689
292.000 6.844 0.227 0.112 0.006 40.294 38.708
293.000 6.925 0.233 0.109 0.006 40.293 38.728
294.000 7.006 0.240 0.107 0.006 40.292 38.747
295.000 7.087 0.246 0.104 0.006 40.290 38.765
296.000 7.168 0.253 0.102 0.006 40.289 38.783
297.000 7.163 0.255 0.101 0.006 40.284 38.782
298.000 7.118 0.255 0.102 0.006 40.277 38.771
299.000 7.068 0.255 0.102 0.006 40.269 38.760
300.000 7.017 0.255 0.103 0.006 40.262 38.748
301.000 6.965 0.255 0.104 0.006 40.255 38.736
302.000 7.282 0.299 0.094 0.006 40.250 38.806
303.000 7.225 0.297 0.095 0.007 40.244 38.793
304.000 7.178 0.296 0.096 0.007 40.238 38.783
305.000 7.101 0.296 0.096 0.007 40.227 38.764
306.000 7.031 0.296 0.097 0.007 40.216 38.746
307.000 6.949 0.298 0.098 0.007 40.201 38.763
308.000 6.895 0.297 0.099 0.007 40.194 38.751
309.000 6.841 0.296 0.099 0.007 40.188 38.739
310.000 6.798 0.296 0.100 0.008 40.181 38.730
311.000 6.736 0.294 0.101 0.008 40.174 38.717
312.000 6.685 0.293 0.102 0.008 40.168 38.706
313.000 6.635 0.293 0.102 0.008 40.161 38.695
314.000 6.586 0.292 0.103 0.008 40.155 38.684
315.000 6.550 0.293 0.104 0.008 40.148 38.676
316.000 6.521 0.294 0.104 0.008 40.142 38.669
317.000 6.492 0.296 0.104 0.009 40.135 38.663
318.000 6.466 0.298 0.104 0.009 40.128 38.656
319.000 6.441 0.300 0.104 0.009 40.122 38.650
320.000 6.418 0.302 0.104 0.009 40.115 38.645
321.000 6.397 0.304 0.104 0.009 40.108 38.639
322.000 6.377 0.307 0.104 0.009 40.102 38.634
323.000 6.359 0.310 0.103 0.009 40.095 38.630
324.000 6.344 0.313 0.103 0.009 40.088 38.625
325.000 6.364 0.318 0.102 0.009 40.081 38.627
326.000 6.401 0.326 0.100 0.009 40.074 38.632
327.000 6.439 0.333 0.098 0.009 40.068 38.637
328.000 6.477 0.341 0.096 0.009 40.061 38.642
329.000 6.516 0.348 0.094 0.009 40.054 38.648
330.000 6.555 0.356 0.092 0.009 40.048 38.654
331.000 6.594 0.365 0.090 0.009 40.041 38.660
332.000 6.635 0.373 0.089 0.009 40.034 38.666
333.000 6.675 0.382 0.087 0.009 40.028 38.673
334.000 6.717 0.391 0.085 0.009 40.022 38.680
335.000 6.759 0.400 0.083 0.009 40.015 38.687
336.000 6.870 0.419 0.081 0.008 40.014 38.714
337.000 7.013 0.443 0.078 0.008 40.015 38.750
338.000 7.164 0.469 0.074 0.008 40.018 38.787
339.000 7.321 0.497 0.072 0.008 40.020 38.826
340.000 7.487 0.528 0.069 0.008 40.024 38.866
341.000 7.662 0.561 0.066 0.008 40.029 38.907
342.000 7.846 0.598 0.063 0.007 40.034 38.949
343.000 7.811 0.598 0.063 0.007 40.027 38.941
344.000 7.723 0.589 0.064 0.008 40.017 38.920
345.000 7.643 0.581 0.065 0.008 40.008 38.900
346.000 7.568 0.574 0.065 0.008 39.999 38.882
347.000 7.500 0.568 0.066 0.008 39.990 38.865
348.000 7.438 0.563 0.066 0.008 39.981 38.848
349.000 7.380 0.558 0.067 0.008 39.972 38.832
350.000 7.340 0.557 0.067 0.008 39.964 38.820
351.000 7.278 0.552 0.067 0.008 39.955 38.804
352.000 6.663 0.502 0.075 0.010 39.902 38.653
353.000 7.344 0.735 0.062 0.010 39.900 38.802
354.000 7.016 0.694 0.066 0.012 39.882 38.719
355.000 6.914 0.690 0.067 0.012 39.867 38.687
356.000 6.870 0.694 0.067 0.012 39.852 38.669
357.000 6.836 0.701 0.066 0.012 39.837 38.654
358.000 6.804 0.708 0.066 0.012 39.823 38.638
359.000 6.772 0.715 0.066 0.013 39.809 38.623
360.000 6.742 0.722 0.065 0.013 39.794 38.608
361.000 6.712 0.730 0.065 0.013 39.780 38.593
362.000 6.683 0.739 0.064 0.013 39.765 38.578
363.000 6.654 0.747 0.064 0.013 39.751 38.563
364.000 6.627 0.756 0.063 0.013 39.736 38.549
365.000 6.599 0.765 0.062 0.013 39.722 38.534
366.000 3.556 0.363 0.257 0.079 39.878 39.206
367.000 3.614 0.379 0.244 0.076 39.861 39.181
368.000 3.674 0.397 0.232 0.073 39.844 39.155
369.000 3.735 0.416 0.220 0.070 39.827 39.130
370.000 3.799 0.436 0.209 0.068 39.811 39.103
371.000 3.866 0.457 0.198 0.065 39.795 39.077
372.000 3.934 0.480 0.188 0.063 39.780 39.049
373.000 4.006 0.505 0.178 0.060 39.766 39.021
374.000 4.080 0.531 0.169 0.058 39.752 38.992
375.000 4.157 0.558 0.160 0.056 39.738 38.961
376.000 4.237 0.588 0.152 0.054 39.725 38.930
377.000 4.321 0.620 0.144 0.052 39.713 38.896
378.000 4.408 0.655 0.137 0.050 39.701 38.861
379.000 4.498 0.692 0.130 0.048 39.690 38.824
380.000 4.593 0.732 0.123 0.046 39.680 38.785
381.000 4.693 0.775 0.116 0.044 39.670 38.743
382.000 4.797 0.822 0.110 0.042 39.661 38.698
383.000 4.906 0.873 0.104 0.041 39.653 38.651
384.000 5.020 0.929 0.099 0.039 39.646 38.604
385.000 4.997 0.131 0.099 0.000 39.638 38.660
386.000 4.975 0.132 0.099 0.000 39.630 38.654
