"Time (MJD)" "Temp./1e3 (K)" "Temp. Err." "Radius/1e15 (cm)" "Radius Err." "Bol. Lum" "Bol. Err"
-38.752 8.123 0.040 0.730 0.006 42.218 39.789
-37.747 7.898 0.035 0.761 0.006 42.206 39.717
-36.743 7.832 0.033 0.770 0.006 42.202 39.686
-35.738 7.479 0.029 0.837 0.006 42.194 39.610
-34.734 7.374 0.027 0.860 0.006 42.193 39.581
-33.729 6.941 0.023 0.957 0.006 42.180 39.529
-32.725 6.795 0.021 1.002 0.006 42.183 39.522
-31.720 6.661 0.019 1.036 0.006 42.178 39.511
-30.716 6.533 0.018 1.070 0.006 42.172 39.505
-29.711 6.411 0.017 1.105 0.006 42.167 39.504
-28.707 6.292 0.016 1.141 0.006 42.163 39.506
-27.702 6.178 0.015 1.178 0.007 42.159 39.512
-26.698 6.068 0.015 1.216 0.007 42.155 39.520
-25.693 5.976 0.014 1.249 0.007 42.152 39.527
-24.689 5.955 0.014 1.252 0.007 42.147 39.525
-23.684 5.828 0.014 1.305 0.007 42.146 39.543
-22.680 5.776 0.013 1.327 0.007 42.145 39.552
-21.675 5.730 0.013 1.340 0.007 42.140 39.556
-20.671 5.654 0.013 1.371 0.008 42.136 39.568
-19.666 5.532 0.013 1.437 0.008 42.139 39.593
-18.662 5.429 0.012 1.497 0.008 42.142 39.616
-17.657 5.388 0.012 1.519 0.009 42.142 39.627
-16.652 5.345 0.012 1.544 0.009 42.142 39.639
-15.648 5.302 0.012 1.570 0.009 42.142 39.650
-14.643 5.260 0.012 1.596 0.009 42.142 39.662
-13.639 5.218 0.012 1.622 0.010 42.143 39.674
-12.634 5.178 0.012 1.648 0.010 42.143 39.686
-11.630 5.140 0.012 1.674 0.010 42.144 39.697
-10.625 5.111 0.012 1.696 0.010 42.146 39.708
-9.621 5.084 0.012 1.717 0.011 42.147 39.717
-8.616 5.057 0.012 1.739 0.011 42.149 39.727
-7.612 5.030 0.012 1.760 0.011 42.150 39.737
-6.607 5.004 0.012 1.782 0.011 42.152 39.746
-5.603 4.978 0.012 1.804 0.012 42.153 39.755
-4.598 4.952 0.012 1.826 0.012 42.155 39.763
-3.594 4.927 0.012 1.848 0.012 42.156 39.772
-2.589 4.901 0.012 1.870 0.012 42.158 39.780
-1.585 4.877 0.012 1.893 0.013 42.160 39.788
-0.580 4.852 0.012 1.916 0.013 42.161 39.796
0.424 4.829 0.012 1.937 0.013 42.163 39.803
1.429 4.810 0.012 1.952 0.013 42.162 39.808
2.433 4.791 0.012 1.967 0.013 42.162 39.813
3.438 4.773 0.012 1.983 0.014 42.162 39.818
4.442 4.754 0.012 1.998 0.014 42.162 39.823
5.447 4.736 0.012 2.014 0.014 42.162 39.828
6.451 4.717 0.012 2.029 0.014 42.162 39.834
7.456 4.699 0.012 2.045 0.014 42.162 39.839
8.460 4.673 0.012 2.070 0.015 42.163 39.846
9.465 4.640 0.012 2.104 0.015 42.165 39.856
10.469 4.606 0.011 2.139 0.015 42.167 39.865
11.474 4.579 0.011 2.167 0.016 42.168 39.873
12.478 4.557 0.011 2.189 0.016 42.168 39.881
13.483 4.536 0.011 2.210 0.016 42.169 39.888
14.487 4.515 0.011 2.232 0.017 42.169 39.896
15.492 4.494 0.011 2.255 0.017 42.170 39.904
16.496 4.473 0.012 2.278 0.017 42.170 39.912
17.501 4.440 0.011 2.318 0.018 42.173 39.923
18.505 4.402 0.011 2.371 0.018 42.177 39.936
19.510 4.363 0.011 2.425 0.019 42.181 39.949
20.514 4.325 0.011 2.480 0.019 42.186 39.962
21.519 4.288 0.011 2.536 0.020 42.190 39.975
22.524 4.251 0.011 2.594 0.021 42.195 39.988
23.528 4.227 0.011 2.628 0.021 42.196 39.997
24.533 4.218 0.011 2.637 0.021 42.195 40.001
25.537 4.212 0.011 2.639 0.022 42.194 40.004
26.542 4.207 0.011 2.640 0.022 42.192 40.008
27.546 4.202 0.011 2.642 0.022 42.190 40.010
28.551 4.196 0.011 2.643 0.022 42.189 40.013
29.555 4.192 0.011 2.644 0.022 42.187 40.016
30.560 4.187 0.011 2.644 0.023 42.185 40.019
31.564 4.182 0.012 2.645 0.023 42.183 40.021
32.569 4.177 0.012 2.645 0.023 42.181 40.023
33.573 4.173 0.012 2.646 0.023 42.180 40.026
34.578 4.168 0.012 2.646 0.024 42.178 40.028
35.582 4.164 0.012 2.646 0.024 42.176 40.030
36.587 4.159 0.012 2.647 0.024 42.174 40.033
37.591 4.155 0.012 2.647 0.024 42.173 40.035
38.596 4.143 0.012 2.652 0.025 42.169 40.037
39.600 4.130 0.012 2.658 0.025 42.166 40.039
40.605 4.116 0.012 2.664 0.025 42.162 40.041
41.609 4.103 0.013 2.670 0.026 42.158 40.043
42.614 4.090 0.013 2.677 0.026 42.155 40.045
43.618 4.076 0.013 2.683 0.026 42.151 40.047
44.623 4.063 0.013 2.690 0.027 42.148 40.050
45.627 4.050 0.013 2.697 0.027 42.144 40.053
46.632 4.036 0.013 2.705 0.028 42.141 40.056
47.636 4.016 0.013 2.721 0.028 42.137 40.061
48.641 3.993 0.013 2.741 0.029 42.134 40.066
49.645 3.970 0.013 2.762 0.029 42.131 40.072
50.650 3.947 0.013 2.784 0.030 42.127 40.078
51.654 3.924 0.013 2.807 0.031 42.124 40.084
52.659 3.901 0.013 2.831 0.032 42.121 40.091
53.663 3.877 0.013 2.855 0.033 42.118 40.098
54.668 3.878 0.014 2.798 0.032 42.101 40.088
55.672 3.880 0.014 2.740 0.032 42.084 40.077
56.677 3.882 0.014 2.683 0.032 42.066 40.066
57.681 3.884 0.015 2.627 0.032 42.049 40.056
58.686 3.885 0.015 2.574 0.032 42.031 40.045
59.691 3.886 0.015 2.522 0.032 42.014 40.035
60.695 3.886 0.015 2.472 0.032 41.997 40.026
61.700 3.886 0.016 2.423 0.032 41.980 40.016
62.704 3.886 0.016 2.375 0.032 41.962 40.006
63.709 3.886 0.016 2.329 0.032 41.945 39.997
64.713 3.886 0.017 2.284 0.032 41.928 39.988
65.718 3.885 0.017 2.240 0.032 41.911 39.979
66.722 3.884 0.017 2.197 0.032 41.894 39.970
67.727 4.173 0.026 1.771 0.032 41.831 39.916
68.731 4.153 0.026 1.735 0.032 41.805 39.900
69.736 4.135 0.027 1.698 0.032 41.779 39.884
70.740 4.118 0.027 1.662 0.031 41.753 39.868
71.745 4.100 0.027 1.626 0.031 41.726 39.852
72.749 4.175 0.029 1.455 0.029 41.661 39.789
73.754 4.048 0.028 1.524 0.031 41.647 39.803
74.758 4.031 0.028 1.490 0.030 41.621 39.787
75.763 4.014 0.028 1.458 0.030 41.594 39.770
76.767 4.002 0.028 1.428 0.030 41.571 39.758
77.772 4.009 0.029 1.412 0.031 41.565 39.759
78.776 4.016 0.030 1.397 0.031 41.558 39.760
79.781 4.024 0.031 1.381 0.031 41.552 39.760
80.785 4.031 0.031 1.365 0.031 41.545 39.761
81.790 4.039 0.032 1.350 0.032 41.539 39.761
82.794 4.046 0.033 1.335 0.032 41.532 39.762
83.799 4.053 0.034 1.320 0.032 41.525 39.762
84.803 4.061 0.034 1.305 0.032 41.519 39.762
85.808 4.068 0.035 1.291 0.033 41.512 39.762
86.812 4.076 0.036 1.276 0.033 41.506 39.762
87.817 4.084 0.037 1.262 0.033 41.499 39.762
88.821 4.091 0.037 1.248 0.033 41.493 39.762
89.826 4.099 0.038 1.234 0.033 41.486 39.761
90.830 4.107 0.039 1.220 0.034 41.480 39.761
91.835 4.114 0.040 1.207 0.034 41.473 39.760
92.839 4.122 0.041 1.193 0.034 41.467 39.759
93.844 4.130 0.041 1.180 0.034 41.460 39.758
94.848 4.138 0.042 1.167 0.034 41.454 39.757
95.853 4.146 0.043 1.154 0.034 41.448 39.756
96.858 4.154 0.044 1.141 0.035 41.441 39.754
97.862 4.162 0.045 1.128 0.035 41.435 39.752
98.867 4.170 0.046 1.115 0.035 41.428 39.751
99.871 4.178 0.047 1.103 0.035 41.422 39.749
100.876 4.187 0.047 1.091 0.035 41.416 39.747
101.880 4.195 0.048 1.078 0.035 41.371 39.708
102.885 4.203 0.049 1.066 0.035 41.329 39.669
103.889 4.212 0.050 1.054 0.035 41.292 39.631
104.894 4.220 0.051 1.042 0.035 41.258 39.593
105.898 4.229 0.052 1.031 0.035 41.228 39.557
106.903 4.237 0.053 1.019 0.035 41.200 39.522
107.907 4.246 0.053 1.008 0.035 41.176 39.487
108.912 4.255 0.054 0.996 0.035 41.154 39.454
109.916 4.264 0.055 0.985 0.035 41.135 39.423
110.921 2.500 0.000 2.018 0.013 41.118 39.393
111.925 2.500 0.000 2.006 0.013 41.102 39.365
112.930 2.500 0.000 1.994 0.013 41.088 39.338
113.934 2.500 0.000 1.981 0.013 41.075 39.314
114.939 2.500 0.000 1.969 0.013 41.064 39.291
115.943 2.500 0.000 1.957 0.013 41.053 39.270
116.948 2.500 0.000 1.944 0.013 41.044 39.251
117.952 2.500 0.000 1.932 0.013 41.034 39.234
118.957 2.500 0.000 1.920 0.013 41.026 39.218
119.961 2.500 0.000 1.908 0.013 41.018 39.204
120.966 2.500 0.000 1.895 0.013 41.000 39.139
121.970 2.500 0.000 1.883 0.013 40.994 39.135
122.975 2.500 0.000 1.871 0.013 40.989 39.132
123.979 2.500 0.000 1.859 0.013 40.983 39.128
124.984 2.500 0.000 1.846 0.013 40.977 39.124
125.988 2.500 0.000 1.834 0.013 40.971 39.119
126.993 2.500 0.000 1.822 0.013 40.966 39.115
127.997 2.500 0.000 1.810 0.013 40.960 39.110
129.002 2.500 0.000 1.798 0.013 40.954 39.105
130.006 2.500 0.000 1.785 0.013 40.948 39.100
131.011 2.500 0.000 1.773 0.013 40.942 39.095
132.015 2.500 0.000 1.761 0.013 40.936 39.090
133.020 2.500 0.000 1.749 0.012 40.930 39.084
134.025 2.500 0.000 1.737 0.012 40.924 39.078
135.029 2.500 0.000 1.725 0.012 40.918 39.072
136.034 2.500 0.000 1.712 0.012 40.912 39.066
137.038 2.500 0.000 1.700 0.012 40.906 39.060
138.043 2.500 0.000 1.688 0.012 40.899 39.053
139.047 2.500 0.000 1.676 0.012 40.893 39.046
140.052 2.500 0.000 1.664 0.012 40.887 39.039
141.056 2.500 0.000 1.652 0.012 40.880 39.032
142.061 2.500 0.000 1.640 0.012 40.874 39.025
143.065 2.500 0.000 1.627 0.011 40.868 39.017
144.070 2.500 0.000 1.615 0.011 40.861 39.009
145.074 2.500 0.000 1.603 0.011 40.855 39.001
146.079 2.500 0.000 1.591 0.011 40.848 38.993
147.083 2.500 0.000 1.579 0.011 40.842 38.985
148.088 2.500 0.000 1.567 0.011 40.835 38.977
149.092 2.500 0.000 1.556 0.011 40.828 38.968
150.097 2.500 0.000 1.544 0.011 40.822 38.959
151.101 2.500 0.000 1.532 0.010 40.815 38.951
152.106 2.500 0.000 1.520 0.010 40.808 38.942
153.110 2.500 0.000 1.508 0.010 40.802 38.933
154.115 2.500 0.000 1.497 0.010 40.795 38.924
155.119 2.500 0.000 1.485 0.010 40.788 38.915
156.124 2.500 0.000 1.474 0.010 40.782 38.906
157.128 2.500 0.000 1.463 0.010 40.775 38.897
158.133 2.500 0.000 1.452 0.010 40.768 38.888
159.137 2.500 0.000 1.441 0.009 40.762 38.879
160.142 2.500 0.000 1.430 0.009 40.755 38.871
161.146 2.500 0.000 1.419 0.009 40.749 38.862
162.151 2.500 0.000 1.409 0.009 40.742 38.854
163.155 2.500 0.000 1.398 0.009 40.736 38.846
164.160 2.500 0.000 1.388 0.009 40.729 38.839
165.164 2.500 0.000 1.378 0.009 40.723 38.832
166.169 2.500 0.000 1.340 0.009 40.699 38.807
167.173 2.500 0.000 1.336 0.009 40.696 38.805
168.178 2.500 0.000 1.332 0.009 40.693 38.803
169.182 2.500 0.000 1.328 0.009 40.691 38.802
170.187 2.500 0.000 1.325 0.009 40.689 38.801
171.192 2.500 0.000 1.321 0.009 40.687 38.801
172.196 2.500 0.000 1.317 0.009 40.684 38.801
173.201 2.500 0.000 1.313 0.009 40.681 38.802
174.205 2.500 0.000 1.308 0.009 40.678 38.803
175.210 2.500 0.000 1.305 0.009 40.675 38.805
176.214 2.500 0.000 1.301 0.009 40.673 38.808
177.219 2.500 0.000 1.297 0.009 40.671 38.811
178.223 2.500 0.000 1.294 0.009 40.668 38.815
179.228 2.500 0.000 1.291 0.009 40.666 38.820
180.232 2.500 0.000 1.287 0.009 40.664 38.825
181.237 2.500 0.000 1.284 0.009 40.662 38.831
182.241 2.500 0.000 1.282 0.010 40.660 38.836
183.246 2.500 0.000 1.279 0.010 40.658 38.843
184.250 2.500 0.000 1.572 0.053 40.838 39.664
