"Time (MJD)" "Temp./1e3 (K)" "Temp. Err." "Radius/1e15 (cm)" "Radius Err." "Bol. Lum" "Bol. Err"
-45.918 6.666 0.049 0.984 0.014 42.134 39.875
-44.914 6.561 0.045 1.013 0.013 42.132 39.842
-43.910 6.459 0.041 1.042 0.013 42.129 39.812
-42.905 6.360 0.038 1.072 0.013 42.127 39.785
-41.901 6.263 0.035 1.104 0.013 42.126 39.763
-40.897 6.168 0.032 1.136 0.012 42.124 39.743
-39.893 6.076 0.029 1.170 0.012 42.124 39.727
-38.889 5.975 0.027 1.201 0.012 42.117 39.709
-37.884 5.876 0.025 1.233 0.011 42.111 39.694
-36.880 5.792 0.023 1.264 0.011 42.108 39.683
-35.876 5.710 0.022 1.297 0.011 42.105 39.673
-34.872 5.631 0.020 1.329 0.011 42.102 39.666
-33.867 5.564 0.019 1.359 0.011 42.100 39.659
-32.863 5.499 0.018 1.388 0.011 42.099 39.654
-31.859 5.436 0.017 1.418 0.011 42.097 39.650
-30.855 5.374 0.017 1.448 0.011 42.096 39.647
-29.850 5.314 0.016 1.479 0.011 42.095 39.645
-28.846 5.256 0.015 1.510 0.011 42.094 39.645
-27.842 5.199 0.015 1.542 0.011 42.093 39.645
-26.838 5.139 0.014 1.578 0.011 42.093 39.648
-25.833 5.081 0.014 1.615 0.011 42.093 39.651
-24.829 5.028 0.013 1.651 0.011 42.094 39.656
-23.825 4.974 0.013 1.696 0.011 42.098 39.663
-22.821 4.921 0.012 1.743 0.011 42.104 39.672
-21.816 4.868 0.012 1.792 0.011 42.109 39.682
-20.812 4.837 0.012 1.818 0.012 42.110 39.685
-19.808 4.806 0.012 1.844 0.012 42.111 39.689
-18.804 4.775 0.011 1.870 0.012 42.112 39.692
-17.800 4.745 0.011 1.896 0.012 42.114 39.696
-16.795 4.704 0.011 1.905 0.012 42.102 39.695
-15.791 4.655 0.011 1.920 0.012 42.091 39.696
-14.787 4.643 0.011 1.966 0.012 42.107 39.707
-13.783 4.623 0.010 2.018 0.012 42.122 39.719
-12.778 4.597 0.010 2.070 0.013 42.135 39.731
-11.774 4.579 0.010 2.084 0.013 42.134 39.732
-10.770 4.558 0.010 2.100 0.013 42.132 39.733
-9.766 4.517 0.010 2.136 0.013 42.131 39.737
-8.761 4.463 0.009 2.192 0.013 42.133 39.745
-7.757 4.398 0.009 2.299 0.014 42.149 39.768
-6.753 4.495 0.010 2.178 0.013 42.140 39.750
-5.749 4.583 0.010 2.077 0.013 42.132 39.734
-4.744 4.486 0.010 2.177 0.013 42.136 39.748
-3.740 4.395 0.009 2.279 0.013 42.140 39.762
-2.736 4.389 0.009 2.265 0.014 42.132 39.759
-1.732 4.353 0.009 2.320 0.014 42.139 39.771
-0.727 4.317 0.009 2.376 0.014 42.145 39.782
0.277 4.285 0.009 2.428 0.014 42.151 39.793
1.281 4.279 0.009 2.435 0.014 42.151 39.794
2.285 4.273 0.009 2.442 0.015 42.151 39.796
3.289 4.268 0.009 2.448 0.015 42.151 39.798
4.294 4.262 0.009 2.455 0.015 42.151 39.800
5.298 4.256 0.009 2.462 0.015 42.151 39.802
6.302 4.250 0.009 2.468 0.015 42.151 39.804
7.306 4.253 0.009 2.464 0.015 42.151 39.804
8.311 4.323 0.009 2.367 0.015 42.144 39.793
9.315 4.395 0.010 2.273 0.014 42.138 39.783
10.319 4.194 0.008 2.541 0.015 42.154 39.821
11.323 4.440 0.010 2.204 0.014 42.129 39.778
12.328 4.304 0.009 2.375 0.015 42.139 39.804
13.332 4.183 0.009 2.544 0.016 42.150 39.828
14.336 4.166 0.009 2.567 0.016 42.150 39.834
15.340 4.149 0.009 2.590 0.016 42.151 39.840
16.345 4.132 0.009 2.613 0.017 42.152 39.847
17.349 4.115 0.009 2.637 0.017 42.152 39.854
18.353 4.098 0.009 2.661 0.017 42.153 39.861
19.357 4.081 0.009 2.685 0.018 42.154 39.869
20.361 4.066 0.009 2.707 0.018 42.154 39.876
21.366 4.062 0.009 2.703 0.018 42.151 39.879
22.370 4.058 0.009 2.699 0.018 42.148 39.882
23.374 4.051 0.009 2.701 0.019 42.146 39.887
24.378 4.035 0.009 2.735 0.019 42.150 39.901
25.383 4.033 0.009 2.743 0.020 42.152 39.911
26.387 4.115 0.010 2.593 0.019 42.138 39.899
27.391 4.201 0.011 2.451 0.019 42.125 39.887
28.395 4.290 0.011 2.316 0.018 42.112 39.875
29.400 4.383 0.012 2.188 0.018 42.100 39.864
30.404 4.460 0.013 2.086 0.018 42.089 39.856
31.408 4.408 0.013 2.131 0.018 42.087 39.871
32.412 4.357 0.013 2.176 0.019 42.085 39.885
33.417 4.306 0.013 2.222 0.020 42.083 39.901
34.421 4.257 0.013 2.269 0.021 42.081 39.916
35.425 4.208 0.013 2.317 0.022 42.079 39.931
36.429 4.161 0.013 2.365 0.023 42.077 39.947
37.434 4.115 0.013 2.414 0.024 42.076 39.963
38.438 4.076 0.013 2.451 0.025 42.072 39.977
39.442 4.038 0.013 2.499 0.026 42.073 39.994
40.446 4.043 0.014 2.524 0.027 42.084 40.017
41.450 4.052 0.014 2.532 0.028 42.090 40.035
42.455 4.053 0.015 2.504 0.028 42.081 40.039
43.459 4.053 0.015 2.476 0.029 42.072 40.044
44.463 4.054 0.016 2.449 0.029 42.062 40.048
45.467 4.055 0.016 2.422 0.030 42.053 40.051
46.472 4.055 0.017 2.396 0.031 42.044 40.055
47.476 4.056 0.017 2.370 0.031 42.035 40.059
48.480 4.057 0.018 2.344 0.032 42.025 40.062
49.484 4.057 0.018 2.318 0.032 42.016 40.065
50.489 4.058 0.019 2.294 0.033 42.007 40.068
51.493 4.058 0.020 2.269 0.034 41.998 40.070
52.497 4.059 0.020 2.245 0.034 41.989 40.073
53.501 4.059 0.021 2.221 0.035 41.980 40.075
54.506 4.060 0.021 2.197 0.035 41.971 40.076
55.510 4.060 0.022 2.174 0.036 41.962 40.078
56.514 4.060 0.022 2.152 0.036 41.953 40.079
57.518 4.060 0.023 2.129 0.037 41.944 40.080
58.523 4.060 0.024 2.107 0.037 41.935 40.081
59.527 4.061 0.024 2.085 0.038 41.926 40.081
60.531 4.061 0.025 2.064 0.038 41.917 40.081
61.535 4.061 0.025 2.043 0.039 41.908 40.081
62.539 4.060 0.026 2.022 0.039 41.899 40.081
63.544 4.060 0.026 2.002 0.039 41.890 40.080
64.548 4.060 0.027 1.981 0.040 41.881 40.079
65.552 4.060 0.027 1.962 0.040 41.872 40.078
66.556 4.060 0.028 1.942 0.041 41.863 40.076
67.561 4.059 0.028 1.922 0.041 41.854 40.075
68.565 4.059 0.029 1.903 0.041 41.846 40.073
69.569 4.059 0.029 1.884 0.041 41.837 40.071
70.573 4.058 0.030 1.866 0.042 41.828 40.068
71.578 4.058 0.030 1.847 0.042 41.819 40.066
73.586 4.056 0.032 1.793 0.042 41.793 40.056
74.590 4.056 0.032 1.776 0.042 41.784 40.053
75.595 4.055 0.033 1.758 0.043 41.775 40.049
76.599 4.055 0.033 1.741 0.043 41.766 40.045
77.603 4.054 0.033 1.724 0.043 41.758 40.041
78.607 4.053 0.034 1.708 0.043 41.749 40.036
79.611 4.053 0.034 1.691 0.043 41.740 40.032
80.616 4.052 0.034 1.675 0.043 41.731 40.027
81.620 4.051 0.035 1.659 0.043 41.723 40.022
82.624 4.050 0.035 1.643 0.043 41.714 40.017
83.628 4.050 0.035 1.627 0.043 41.705 40.012
84.633 4.049 0.036 1.611 0.043 41.696 40.006
85.637 4.048 0.036 1.596 0.042 41.688 40.000
86.641 4.047 0.036 1.580 0.042 41.679 39.994
87.645 4.046 0.036 1.565 0.042 41.670 39.988
88.650 4.045 0.036 1.550 0.042 41.662 39.982
89.654 4.045 0.037 1.535 0.042 41.653 39.975
90.658 4.044 0.037 1.521 0.042 41.644 39.968
91.662 4.043 0.037 1.506 0.041 41.635 39.961
92.667 4.042 0.037 1.492 0.041 41.627 39.954
93.671 4.041 0.037 1.478 0.041 41.618 39.947
94.675 4.040 0.037 1.464 0.041 41.609 39.940
95.679 4.039 0.037 1.450 0.040 41.601 39.932
96.684 4.038 0.038 1.436 0.040 41.592 39.924
97.688 4.037 0.038 1.423 0.040 41.583 39.916
98.692 4.036 0.038 1.409 0.040 41.574 39.908
99.696 4.035 0.038 1.396 0.039 41.566 39.899
100.700 4.034 0.038 1.383 0.039 41.557 39.891
101.705 4.032 0.038 1.370 0.039 41.548 39.882
102.709 4.031 0.038 1.357 0.038 41.540 39.873
103.713 4.030 0.038 1.344 0.038 41.531 39.864
104.717 4.029 0.038 1.331 0.037 41.522 39.854
105.722 4.028 0.037 1.319 0.037 41.513 39.845
106.726 4.027 0.037 1.306 0.037 41.505 39.835
107.730 4.025 0.037 1.294 0.036 41.496 39.825
108.734 4.024 0.037 1.282 0.036 41.487 39.815
109.739 4.023 0.037 1.270 0.035 41.479 39.805
110.743 4.022 0.037 1.258 0.035 41.470 39.794
111.747 4.020 0.037 1.246 0.034 41.461 39.783
112.751 4.019 0.036 1.235 0.034 41.453 39.773
113.756 4.018 0.036 1.223 0.033 41.444 39.761
114.760 4.017 0.036 1.212 0.033 41.435 39.750
115.764 4.015 0.036 1.201 0.032 41.426 39.738
116.768 4.014 0.035 1.189 0.032 41.418 39.727
117.773 4.012 0.035 1.178 0.031 41.409 39.715
118.777 4.011 0.035 1.167 0.031 41.400 39.702
119.781 4.010 0.035 1.157 0.030 41.392 39.690
120.785 4.008 0.034 1.146 0.030 41.383 39.677
121.789 4.007 0.034 1.135 0.029 41.374 39.664
122.794 4.005 0.034 1.125 0.028 41.365 39.651
123.798 4.004 0.033 1.115 0.028 41.357 39.638
124.802 4.002 0.033 1.104 0.027 41.348 39.624
125.806 4.000 0.032 1.094 0.027 41.339 39.610
126.811 3.999 0.032 1.084 0.026 41.331 39.596
127.815 3.997 0.032 1.074 0.026 41.322 39.581
128.819 3.995 0.031 1.064 0.025 41.313 39.566
129.823 3.994 0.031 1.055 0.025 41.304 39.551
130.828 3.992 0.030 1.045 0.024 41.296 39.536
131.832 3.990 0.030 1.035 0.023 41.287 39.520
132.836 3.988 0.029 1.026 0.023 41.278 39.505
133.840 3.987 0.029 1.017 0.022 41.270 39.488
134.845 3.985 0.028 1.008 0.022 41.261 39.472
135.849 3.983 0.028 0.999 0.021 41.252 39.455
136.853 3.981 0.027 0.990 0.020 41.244 39.438
137.857 3.978 0.026 0.981 0.020 41.235 39.420
138.861 3.976 0.026 0.972 0.019 41.226 39.402
139.866 3.974 0.025 0.963 0.019 41.217 39.384
140.870 3.972 0.025 0.955 0.018 41.209 39.365
141.874 3.969 0.024 0.947 0.018 41.200 39.347
142.878 3.967 0.024 0.938 0.017 41.191 39.327
143.883 3.964 0.023 0.930 0.016 41.183 39.308
144.887 3.962 0.022 0.922 0.016 41.174 39.288
145.891 3.959 0.022 0.914 0.015 41.165 39.267
146.895 3.956 0.021 0.906 0.015 41.157 39.247
147.900 3.953 0.021 0.899 0.014 41.148 39.226
148.904 3.950 0.020 0.891 0.014 41.139 39.204
149.908 3.947 0.019 0.884 0.013 41.131 39.183
150.912 3.944 0.019 0.877 0.013 41.122 39.161
151.917 3.936 0.018 0.872 0.012 41.114 39.140
152.921 3.858 0.016 0.910 0.012 41.117 39.134
153.925 3.828 0.015 0.927 0.012 41.119 39.122
154.929 3.798 0.015 0.943 0.011 41.120 39.109
155.934 3.769 0.014 0.960 0.011 41.122 39.096
156.938 3.741 0.013 0.976 0.011 41.124 39.083
157.942 3.714 0.012 0.993 0.011 41.126 39.070
158.946 3.684 0.011 1.012 0.010 41.128 39.058
159.950 3.620 0.011 1.070 0.010 41.146 39.072
160.955 3.606 0.010 1.075 0.010 41.144 39.057
161.959 3.595 0.010 1.080 0.010 41.142 39.042
162.963 3.618 0.009 1.057 0.009 41.135 39.017
163.967 3.642 0.009 1.035 0.009 41.128 38.992
164.972 3.665 0.009 1.013 0.008 41.120 38.970
165.976 3.642 0.009 1.018 0.008 41.113 38.964
166.980 3.630 0.009 1.021 0.008 41.111 38.955
167.984 3.618 0.009 1.026 0.008 41.109 38.947
168.989 3.608 0.008 1.029 0.008 41.106 38.941
169.993 3.618 0.008 1.015 0.008 41.099 38.932
170.997 3.626 0.008 1.004 0.008 41.094 38.925
172.001 3.605 0.008 1.027 0.008 41.104 38.927
173.006 3.579 0.008 1.054 0.008 41.114 38.933
174.010 3.562 0.007 1.072 0.008 41.121 38.938
175.014 3.657 0.008 0.982 0.007 41.090 38.913
176.018 3.746 0.009 0.904 0.007 41.060 38.893
177.023 3.811 0.010 0.848 0.007 41.034 38.882
178.027 3.783 0.010 0.858 0.007 41.031 38.893
179.031 3.763 0.010 0.869 0.007 41.033 38.899
180.035 3.729 0.009 0.891 0.008 41.039 38.910
181.039 3.694 0.009 0.914 0.008 41.044 38.924
182.044 3.655 0.009 0.940 0.008 41.050 38.941
183.048 3.618 0.009 0.965 0.008 41.056 38.959
184.052 3.616 0.009 0.962 0.009 41.052 38.971
185.056 3.616 0.010 0.957 0.009 41.048 38.983
186.061 3.623 0.010 0.946 0.009 41.041 38.994
187.065 3.629 0.010 0.935 0.009 41.034 39.005
188.069 3.636 0.011 0.925 0.010 41.027 39.016
189.073 3.643 0.011 0.914 0.010 41.021 39.028
190.078 3.650 0.012 0.903 0.010 41.014 39.040
191.082 3.658 0.013 0.892 0.011 41.007 39.052
